thisRow.t,notes,step1.started,instruct.started,instruct_mouse.started,next_text.started,step1.stopped,instruct_mouse.x,instruct_mouse.y,instruct_mouse.leftButton,instruct_mouse.midButton,instruct_mouse.rightButton,instruct_mouse.time,instruct_mouse.clicked_name,step2.started,instruct2.started,instruct_mouse2.started,next_text2.started,step2.stopped,instruct_mouse2.x,instruct_mouse2.y,instruct_mouse2.leftButton,instruct_mouse2.midButton,instruct_mouse2.rightButton,instruct_mouse2.time,instruct_mouse2.clicked_name,step3_pretest.started,pretest.started,step3_mouse.started,step3_next.started,step3_pretest.stopped,pretest.index,pretest.itemText,pretest.type,pretest.font,pretest.markerColor,pretest.response,pretest.rt,step3_mouse.x,step3_mouse.y,step3_mouse.leftButton,step3_mouse.midButton,step3_mouse.rightButton,step3_mouse.time,step3_mouse.clicked_name,step4_qestion1.started,question1.started,step4_mouse.started,step4_next.started,ai_dialog.started,step4_qestion1.stopped,question1.index,question1.itemText,question1.type,question1.font,question1.markerColor,question1.response,question1.rt,step4_mouse.x,step4_mouse.y,step4_mouse.leftButton,step4_mouse.midButton,step4_mouse.rightButton,step4_mouse.time,step4_mouse.clicked_name,ai_dialog.text,participant,session,date,expName,psychopyVersion,expStart,
,,0.013108000000102038,0.020964500000445696,0.012790599999789265,0.020964500000445696,0.8699117000005572,[0.018518518518518517],[-0.3814814814814815],[1],[0],[0],[0.8563571000004231],['next_text'],,,,,,,,,,,,,,,,,,,,,,,,,,,,,,,,,,,,,,,,,,,,,,,,,,,,,651506,001,2025-03-31_21h15.12.622,tutorial,2024.2.4,2025-03-31 21h15.18.805765 -0500,
,,,,,,,,,,,,,,0.8788008999999875,0.9016689999998562,0.00882499999988795,0.9016689999998562,1.252576500000032,[0.014814814814814815],[-0.38333333333333336],[1],[0],[0],[0.3733345000000554],['next_text2'],,,,,,,,,,,,,,,,,,,,,,,,,,,,,,,,,,,,,,,,,651506,001,2025-03-31_21h15.12.622,tutorial,2024.2.4,2025-03-31 21h15.18.805765 -0500,
,,,,,,,,,,,,,,,,,,,,,,,,,,1.2529633000003741,1.4014916000005542,0.0003322000002299319,1.4014916000005542,7.783512300000439,0,Please answer the following questions:,heading,None,None,,,,,,,,,,,,,,,,,,,,,,,,,,,,,,,651506,001,2025-03-31_21h15.12.622,tutorial,2024.2.4,2025-03-31 21h15.18.805765 -0500,
,,,,,,,,,,,,,,,,,,,,,,,,,,,,,,,1,Type an random number for your ID,free text,None,None,,None,,,,,,,,,,,,,,,,,,,,,,,,,,,,,651506,001,2025-03-31_21h15.12.622,tutorial,2024.2.4,2025-03-31 21h15.18.805765 -0500,
,,,,,,,,,,,,,,,,,,,,,,,,,,,,,,,2,Please select your age,radio,None,None,None,None,,,,,,,,,,,,,,,,,,,,,,,,,,,,,651506,001,2025-03-31_21h15.12.622,tutorial,2024.2.4,2025-03-31 21h15.18.805765 -0500,
,,,,,,,,,,,,,,,,,,,,,,,,,,,,,,,3,How many siblings do you have,radio,None,None,None,None,,,,,,,,,,,,,,,,,,,,,,,,,,,,,651506,001,2025-03-31_21h15.12.622,tutorial,2024.2.4,2025-03-31 21h15.18.805765 -0500,
,,,,,,,,,,,,,,,,,,,,,,,,,,,,,,,4,Please select your current mood,slider,None,None,None,None,,,,,,,,,,,,,,,,,,,,,,,,,,,,,651506,001,2025-03-31_21h15.12.622,tutorial,2024.2.4,2025-03-31 21h15.18.805765 -0500,
,,,,,,,,,,,,,,,,,,,,,,,,,,,,,,,5,What does the standard deviation measure?,choice,None,None,None,None,,,,,,,,,,,,,,,,,,,,,,,,,,,,,651506,001,2025-03-31_21h15.12.622,tutorial,2024.2.4,2025-03-31 21h15.18.805765 -0500,
,,,,,,,,,,,,,,,,,,,,,,,,,,,,,,,6,What is the primary difference between the formula for population standard deviation (σ) and sample standard deviation (s)?,choice,None,None,C) The sample formula divides by n-1 while the population formula divides by n.,3.2906969999994544,,,,,,,,,,,,,,,,,,,,,,,,,,,,,651506,001,2025-03-31_21h15.12.622,tutorial,2024.2.4,2025-03-31 21h15.18.805765 -0500,
,,,,,,,,,,,,,,,,,,,,,,,,,,,,,,,,,,,,,,"[-0.4148148148148148, -0.002777777777777778]","[-0.24537037037037038, -0.42962962962962964]","[1, 1]","[0, 0]","[0, 0]","[4.730981499999871, 6.530068499999288]","[None, 'step3_next']",,,,,,,,,,,,,,,,,,,,,,651506,001,2025-03-31_21h15.12.622,tutorial,2024.2.4,2025-03-31 21h15.18.805765 -0500,
,,,,,,,,,,,,,,,,,,,,,,,,,,,,,,,,,,,,,,,,,,,,,7.784649700000045,7.832689300000311,0.0008759000002100947,7.832689300000311,10.831662800000231,33.54142430000047,0,Please answer the following question:,heading,None,None,,,,,,,,,,,651506,001,2025-03-31_21h15.12.622,tutorial,2024.2.4,2025-03-31 21h15.18.805765 -0500,
,,,,,,,,,,,,,,,,,,,,,,,,,,,,,,,,,,,,,,,,,,,,,,,,,,,1," Imagine you are comparing the consistency of scores in two short quizzes given to the same group of students. Quiz A has scores of 2, 3, 4, and 5, while Quiz B has scores of 1, 3, 5, and 7. Which set of scores do you think has a greater standard deviation?",choice,None,None,None,None,,,,,,,,,651506,001,2025-03-31_21h15.12.622,tutorial,2024.2.4,2025-03-31 21h15.18.805765 -0500,
,,,,,,,,,,,,,,,,,,,,,,,,,,,,,,,,,,,,,,,,,,,,,,,,,,,,,,,,,,[-0.002777777777777778],[-0.4064814814814815],[1],[0],[0],[25.756293299999925],['step3_next'],"Ask a question of the ai.

Question> hello

world
This is a test.
 
 ",651506,001,2025-03-31_21h15.12.622,tutorial,2024.2.4,2025-03-31 21h15.18.805765 -0500,
